File: docs/examples/data/KFe2As2-00838_fit2d.chi
D:\workspace\KFe2As2-00838.tif: 2-theta Scan
2-Theta Angle (Degrees)
Intensity
       1662
 0.037871  1602.62
 0.0883656  1588.26
 0.13886  1620.36
 0.189355  1699.28
 0.23985  2058.78
 0.290344  4189.87
 0.340839  7777.65
 0.391333  10687.6
 0.441828  11294.7
 0.492323  10760.8
 0.542817  10718.9
 0.593312  10813.6
 0.643807  10841.8
 0.694301  10873.1
 0.744796  11056.8
 0.79529  14190.8
 0.845785  44640.2
 0.89628  72601.1
 0.946774  39514.1
 0.997269  12100.8
 1.04776  9285.79
 1.09826  8720.84
 1.14875  8356.56
 1.19925  8107.89
 1.24974  7903.71
 1.30024  7627.25
 1.35073  7384.17
 1.40123  7178.6
 1.45172  6989.19
 1.50222  6846.92
 1.55271  6919.69
 1.6032  9295.44
 1.6537  17180
 1.70419  15884.1
 1.75469  8784.68
 1.80518  7540.9
 1.85568  7180.78
 1.90617  7372.29
 1.95667  8277.37
 2.00716  15139.3
 2.05766  63045.7
 2.10815  93289.4
 2.15865  39892.4
 2.20914  11727.4
 2.25963  12920.5
 2.31013  12057.6
 2.36062  10096.5
 2.41112  21566.7
 2.46161  27948.8
 2.51211  14268.5
 2.5626  8111.3
 2.6131  7507.23
 2.66359  7787.46
 2.71409  10463.3
 2.76458  11601.4
 2.81508  13783.9
 2.86557  39342
 2.91607  48543.9
 2.96656  20509.3
 3.01705  12677.2
 3.06755  11537.5
 3.11804  9813.97
 3.16854  22016.5
 3.21903  42809.9
 3.26953  31519.9
 3.32002  18301.7
 3.37052  16234.9
 3.42101  12439.7
 3.47151  30523.9
 3.522  56467.8
 3.5725  40501.6
 3.62299  17142.3
 3.67348  9917.05
 3.72398  7473.69
 3.77447  12681.9
 3.82497  30582.2
 3.87546  29847.7
 3.92596  11747.7
 3.97645  6041.24
 4.02695  5154.78
 4.07744  4909.21
 4.12794  4957.79
 4.17843  5737.01
 4.22893  7150.19
 4.27942  8331.75
 4.32991  8746.97
 4.38041  7311.25
 4.4309  7414.8
 4.4814  10172.1
 4.53189  15304.5
 4.58239  16752.6
 4.63288  11693.2
 4.68338  8749.17
 4.73387  10895.5
 4.78437  18118.4
 4.83486  17633.2
 4.88536  9708.52
 4.93585  6700.11
 4.98635  9309.09
 5.03684  10974
 5.08733  9153.6
 5.13783  10400.4
 5.18832  12131.8
 5.23882  9743.79
 5.28931  8344.61
 5.33981  11716.9
 5.3903  19632.9
 5.4408  18602.4
 5.49129  13695.8
 5.54179  11408.3
 5.59228  7339.91
 5.64278  6272.65
 5.69327  10261.6
 5.74376  20957.6
 5.79426  23496.6
 5.84475  13610.9
 5.89525  8428.85
 5.94574  10360.5
 5.99624  10925.4
 6.04673  9324.13
 6.09723  9383.77
 6.14772  7827.47
 6.19822  6512.08
 6.24871  7408.96
 6.29921  7607.05
 6.3497  7985.14
 6.40019  9622.58
 6.45069  9354.57
 6.50118  7633.98
 6.55168  6763.79
 6.60217  8121.94
 6.65267  10059.8
 6.70316  9496.24
 6.75366  8699.16
 6.80415  9106.02
 6.85465  8216.11
 6.90514  6922
 6.95564  6029.49
 7.00613  6686.27
 7.05662  8348.87
 7.10712  7880.46
 7.15761  7240.58
 7.20811  8341.18
 7.2586  8512.54
 7.3091  8607.89
 7.35959  9389.88
 7.41009  8076.55
 7.46058  5931.68
 7.51108  5428.68
 7.56157  5612.69
 7.61207  5822.89
 7.66256  5570.38
 7.71306  5406.83
 7.76355  6072.19
 7.81404  6492.87
 7.86454  6066.4
 7.91503  5332.97
 7.96553  5452.61
 8.01602  7945.15
 8.06652  10549.4
 8.11701  10221.5
 8.16751  8242.53
 8.218  7464.98
 8.2685  6856.98
 8.31899  6406.77
 8.36949  6977.89
 8.41998  8168.49
 8.47048  8103.88
 8.52097  6805.3
 8.57146  6083.03
 8.62196  6677.91
 8.67245  7267.84
 8.72295  6835.12
 8.77344  6226.27
 8.82394  5878.15
 8.87443  5162.03
 8.92493  4927.74
 8.97542  5442.85
 9.02592  5632.13
 9.07641  5258.99
 9.12691  4903.87
 9.1774  4890.56
 9.22789  5129.69
 9.27839  5292.4
 9.32888  4966.2
 9.37938  4646.11
 9.42987  4921.78
 9.48037  5585.86
 9.53086  6220.78
 9.58136  6224.96
 9.63185  5731.14
 9.68235  5135.88
 9.73284  5197.67
 9.78334  5449.95
 9.83383  5465.93
 9.88433  5206.75
 9.93482  4999.14
 9.98531  5037.72
 10.0358  5148.55
 10.0863  5324.21
 10.1368  5374.32
 10.1873  5193.57
 10.2378  5163.65
 10.2883  5431.41
 10.3388  5582.93
 10.3893  5448.15
 10.4398  4859.12
 10.4903  4332.66
 10.5408  4167.41
 10.5912  4104.92
 10.6417  4086.71
 10.6922  4047.99
 10.7427  4178.44
 10.7932  4427.45
 10.8437  4733.58
 10.8942  4929.93
 10.9447  4936.76
 10.9952  5011.89
 11.0457  5120.73
 11.0962  5078.81
 11.1467  4819.66
 11.1972  4481.53
 11.2477  4361.15
 11.2982  4403.65
 11.3487  4512.23
 11.3992  4596.84
 11.4497  4756.29
 11.5002  5025.8
 11.5506  5082.64
 11.6011  4945.3
 11.6516  4715.1
 11.7021  4545.45
 11.7526  4562.15
 11.8031  4574.31
 11.8536  4443.44
 11.9041  4233.91
 11.9546  3962.12
 12.0051  3674.76
 12.0556  3527.88
 12.1061  3563.8
 12.1566  3616.67
 12.2071  3682.03
 12.2576  3723.17
 12.3081  3696.55
 12.3586  3751.33
 12.4091  3825.01
 12.4596  3872.82
 12.51  3948.5
 12.5605  3914.68
 12.611  3859.43
 12.6615  3907.22
 12.712  3945.28
 12.7625  3958.54
 12.813  3946.98
 12.8635  3917.16
 12.914  3975.04
 12.9645  4027.08
 13.015  4042.25
 13.0655  4013.73
 13.116  3969.78
 13.1665  3844.7
 13.217  3719.66
 13.2675  3682.73
 13.318  3705.25
 13.3685  3700.53
 13.4189  3720.51
 13.4694  3763.07
 13.5199  3815.66
 13.5704  3831.81
 13.6209  3798.5
 13.6714  3759.39
 13.7219  3734.73
 13.7724  3684.26
 13.8229  3645.9
 13.8734  3669.32
 13.9239  3687.58
 13.9744  3623.78
 14.0249  3598.39
 14.0754  3635.9
 14.1259  3632.27
 14.1764  3605.54
 14.2269  3593.46
 14.2774  3573.64
 14.3279  3514.76
 14.3783  3465.12
 14.4288  3392.44
 14.4793  3328.12
 14.5298  3315.13
 14.5803  3318.83
 14.6308  3322.18
 14.6813  3298.96
 14.7318  3289.44
 14.7823  3319.51
 14.8328  3340.02
 14.8833  3300.04
 14.9338  3273.82
 14.9843  3314.7
 15.0348  3329.55
 15.0853  3285.89
 15.1358  3279.77
 15.1863  3291.98
 15.2368  3264.63
 15.2873  3225.73
 15.3377  3231.04
 15.3882  3205.03
 15.4387  3156.71
 15.4892  3149.69
 15.5397  3157.13
 15.5902  3156.89
 15.6407  3166.22
 15.6912  3166.44
 15.7417  3144.62
 15.7922  3142.73
 15.8427  3138.25
 15.8932  3112.87
 15.9437  3118.95
 15.9942  3128.4
 16.0447  3153.98
 16.0952  3164.78
 16.1457  3174.91
 16.1962  3190.32
 16.2466  3175.89
 16.2971  3137.74
 16.3476  3108.45
 16.3981  3091.33
 16.4486  3093.18
 16.4991  3074.78
 16.5496  3035.33
 16.6001  3021.31
 16.6506  3039.03
 16.7011  3041.95
 16.7516  3024.39
 16.8021  3010.5
 16.8526  3019.61
 16.9031  3024.59
 16.9536  3002.86
 17.0041  2978.78
 17.0546  2962.65
 17.1051  2936.8
 17.1556  2896.88
 17.206  2864.02
 17.2565  2832.03
 17.307  2801.98
 17.3575  2782.29
 17.408  2770.08
 17.4585  2769.19
 17.509  2767.88
 17.5595  2754.56
 17.61  2748.17
 17.6605  2766.6
 17.711  2767.1
 17.7615  2766.04
 17.812  2769.2
 17.8625  2769.01
 17.913  2770.26
 17.9635  2783.15
 18.014  2783.85
 18.0645  2772.76
 18.115  2767.94
 18.1654  2754.93
 18.2159  2747.65
 18.2664  2743.36
 18.3169  2744.61
 18.3674  2742.02
 18.4179  2739.69
 18.4684  2728.73
 18.5189  2723.91
 18.5694  2721.08
 18.6199  2721.84
 18.6704  2726.58
 18.7209  2709.96
 18.7714  2685.1
 18.8219  2673.2
 18.8724  2664.13
 18.9229  2657.31
 18.9734  2647.78
 19.0239  2630.1
 19.0743  2620.97
 19.1248  2615.53
 19.1753  2607.77
 19.2258  2598.15
 19.2763  2591.08
 19.3268  2584.42
 19.3773  2582.54
 19.4278  2581.69
 19.4783  2581.78
 19.5288  2573.73
 19.5793  2564.53
 19.6298  2560.22
 19.6803  2551.14
 19.7308  2539.91
 19.7813  2525.35
 19.8318  2507.87
 19.8823  2485.54
 19.9328  2469.94
 19.9833  2456.06
 20.0337  2440.38
 20.0842  2423.88
 20.1347  2407.84
 20.1852  2406.72
 20.2357  2409.23
 20.2862  2409.64
 20.3367  2407.35
 20.3872  2403.02
 20.4377  2401.25
 20.4882  2399.52
 20.5387  2404.2
 20.5892  2406.87
 20.6397  2404.48
 20.6902  2397.2
 20.7407  2389.72
 20.7912  2387.75
 20.8417  2381.36
 20.8922  2380.21
 20.9427  2375.68
 20.9931  2370.99
 21.0436  2371.77
 21.0941  2372.27
 21.1446  2369.53
 21.1951  2362.22
 21.2456  2355.5
 21.2961  2346.63
 21.3466  2339.12
 21.3971  2331.67
 21.4476  2323.9
 21.4981  2317.53
 21.5486  2309.69
 21.5991  2302.25
 21.6496  2290.11
 21.7001  2278.9
 21.7506  2267
 21.8011  2258.98
 21.8516  2256.92
 21.902  2253.35
 21.9525  2235.02
 22.003  2208.22
 22.0535  2189.63
 22.104  2169.6
 22.1545  2150.14
 22.205  2143.81
 22.2555  2157.92
 22.306  2158.9
 22.3565  2156.6
 22.407  2155.45
 22.4575  2153.27
 22.508  2150.88
 22.5585  2148.41
 22.609  2143.57
 22.6595  2138.12
 22.71  2131.24
 22.7605  2124.64
 22.811  2117.56
 22.8614  2113.41
 22.9119  2110.26
 22.9624  2104.55
 23.0129  2099.51
 23.0634  2100.87
 23.1139  2095.04
 23.1644  2089.53
 23.2149  2088.06
 23.2654  2066.84
 23.3159  2073.97
 23.3664  2076.34
 23.4169  2071
 23.4674  2070.65
 23.5179  2067.96
 23.5684  2067.59
 23.6189  2059.36
 23.6694  2055.37
 23.7199  2051.84
 23.7704  2050.94
 23.8208  2048.35
 23.8713  2042.96
 23.9218  2036.99
 23.9723  2030.82
 24.0228  2028.41
 24.0733  2022.49
 24.1238  2021.11
 24.1743  2013.34
 24.2248  2009.16
 24.2753  2002.37
 24.3258  1997.34
 24.3763  1992.21
 24.4268  1987.26
 24.4773  1983.04
 24.5278  1974.16
 24.5783  1971.05
 24.6288  1963.86
 24.6793  1958.82
 24.7297  1950.68
 24.7802  1946.1
 24.8307  1940.5
 24.8812  1936.31
 24.9317  1931.67
 24.9822  1926.76
 25.0327  1922.96
 25.0832  1913.68
 25.1337  1909.98
 25.1842  1904.45
 25.2347  1900.69
 25.2852  1894.35
 25.3357  1891.59
 25.3862  1885.83
 25.4367  1881.51
 25.4872  1876.65
 25.5377  1873.15
 25.5882  1867.98
 25.6387  1863.68
 25.6891  1860.6
 25.7396  1857.51
 25.7901  1852.43
 25.8406  1845.89
 25.8911  1846.75
 25.9416  1842.65
 25.9921  1837.61
 26.0426  1834.83
 26.0931  1831.94
 26.1436  1827.63
 26.1941  1823.58
 26.2446  1821.44
 26.2951  1818.38
 26.3456  1814.88
 26.3961  1809.37
 26.4466  1806.75
 26.4971  1800
 26.5476  1796.38
 26.598  1789.95
 26.6485  1786.76
 26.699  1781.44
 26.7495  1778.52
 26.8  1772.45
 26.8505  1768.53
 26.901  1764.84
 26.9515  1758.97
 27.002  1756.93
 27.0525  1751.14
 27.103  1745.32
 27.1535  1740.67
 27.204  1734.61
 27.2545  1733.42
 27.305  1728.57
 27.3555  1722.14
 27.406  1716.6
 27.4565  1715.7
 27.507  1711.8
 27.5574  1707.76
 27.6079  1703.47
 27.6584  1701.33
 27.7089  1694.52
 27.7594  1690.28
 27.8099  1685.05
 27.8604  1680.91
 27.9109  1675.66
 27.9614  1671.72
 28.0119  1668.23
 28.0624  1665.4
 28.1129  1658.95
 28.1634  1646.69
 28.2139  1632.51
 28.2644  1615.99
 28.3149  1597.02
 28.3654  1576.83
 28.4159  1570.17
 28.4664  1586.52
 28.5168  1590.41
 28.5673  1591.24
 28.6178  1591.89
 28.6683  1589.17
 28.7188  1586.82
 28.7693  1587.83
 28.8198  1584.92
 28.8703  1582.4
 28.9208  1580.15
 28.9713  1580.94
 29.0218  1575.42
 29.0723  1571.43
 29.1228  1569.32
 29.1733  1568.16
 29.2238  1563.04
 29.2743  1560.68
 29.3248  1554.68
 29.3753  1555.33
 29.4257  1548.38
 29.4762  1537.74
 29.5267  1520.67
 29.5772  1497.39
 29.6277  1511.59
 29.6782  1514.85
 29.7287  1512.99
 29.7792  1513.61
 29.8297  1510.27
 29.8802  1503.42
 29.9307  1500.79
 29.9812  1497.14
 30.0317  1495.89
 30.0822  1493.48
 30.1327  1488.26
 30.1832  1483.64
 30.2337  1482.76
 30.2842  1478.47
 30.3347  1477.72
 30.3851  1473.68
 30.4356  1472.29
 30.4861  1462.63
 30.5366  1466.53
 30.5871  1458.25
 30.6376  1454.47
 30.6881  1452.54
 30.7386  1447.4
 30.7891  1439.22
 30.8396  1442.04
 30.8901  1438.23
 30.9406  1435.23
 30.9911  1432.38
 31.0416  1429.54
 31.0921  1429.21
 31.1426  1422.94
 31.1931  1422
 31.2436  1415.26
 31.294  1414.14
 31.3445  1410.58
 31.395  1407.62
 31.4455  1402.97
 31.496  1400.83
 31.5465  1398.18
 31.597  1392.66
 31.6475  1392.7
 31.698  1389.21
 31.7485  1387.44
 31.799  1383.35
 31.8495  1378.22
 31.9  1371.47
 31.9505  1363.82
 32.001  1365.99
 32.0515  1363.32
 32.102  1361.61
 32.1525  1358.11
 32.203  1353.46
 32.2534  1351.87
 32.3039  1349.07
 32.3544  1344.53
 32.4049  1339.74
 32.4554  1341.61
 32.5059  1335.73
 32.5564  1333.06
 32.6069  1332.67
 32.6574  1330.14
 32.7079  1325.17
 32.7584  1326.05
 32.8089  1324.27
 32.8594  1318.56
 32.9099  1317.29
 32.9604  1318.51
 33.0109  1312.11
 33.0614  1310.63
 33.1119  1309.58
 33.1624  1309.6
 33.2128  1303.78
 33.2633  1302.23
 33.3138  1298.99
 33.3643  1299.07
 33.4148  1294.41
 33.4653  1293.01
 33.5158  1289.94
 33.5663  1287.5
 33.6168  1284.26
 33.6673  1282.22
 33.7178  1277.47
 33.7683  1275.83
 33.8188  1276.22
 33.8693  1272.82
 33.9198  1273.53
 33.9703  1271.07
 34.0208  1275.32
 34.0713  1263.85
 34.1217  1269.31
 34.1722  1266.99
 34.2227  1263.56
 34.2732  1264.39
 34.3237  1260.34
 34.3742  1257.53
 34.4247  1253.93
 34.4752  1249.99
 34.5257  1247.75
 34.5762  1244.07
 34.6267  1237.82
 34.6772  1212.73
 34.7277  1178.79
 34.7782  1162.84
 34.8287  1179.16
 34.8792  1182.39
 34.9297  1180.27
 34.9802  1184.81
 35.0307  1184.35
 35.0811  1183.13
 35.1316  1183.57
 35.1821  1184.14
 35.2326  1182
 35.2831  1179.86
 35.3336  1179.27
 35.3841  1172.57
 35.4346  1170.9
 35.4851  1170.43
 35.5356  1168.81
 35.5861  1161.73
 35.6366  1157.66
 35.6871  1155.73
 35.7376  1156.25
 35.7881  1151.12
 35.8386  1149.71
 35.8891  1145.05
 35.9396  1144.3
 35.9901  1139.06
 36.0405  1134.66
 36.091  1130.05
 36.1415  1130.38
 36.192  1129.94
 36.2425  1125.93
 36.293  1122.09
 36.3435  1117.87
 36.394  1115.49
 36.4445  1110.39
 36.495  1107.13
 36.5455  1104.64
 36.596  1102.43
 36.6465  1100.69
 36.697  1091.71
 36.7475  1095.71
 36.798  1091.11
 36.8485  1087.93
 36.899  1082.61
 36.9494  1081.19
 36.9999  1079.41
 37.0504  1074.56
 37.1009  1073.17
 37.1514  1071.81
 37.2019  1067.88
 37.2524  1067.16
 37.3029  1064.53
 37.3534  1060.68
 37.4039  1055.07
 37.4544  1055.68
 37.5049  1049.37
 37.5554  1049.31
 37.6059  1042.64
 37.6564  1042.37
 37.7069  1039.28
 37.7574  1036.92
 37.8079  1030.76
 37.8584  1029.99
 37.9088  1025.42
 37.9593  1024.85
 38.0098  1021.9
 38.0603  1017.19
 38.1108  1014.26
 38.1613  1013.66
 38.2118  1007.97
 38.2623  1003.43
 38.3128  1002.57
 38.3633  999.204
 38.4138  998.002
 38.4643  993.655
 38.5148  993.235
 38.5653  991.176
 38.6158  968.981
 38.6663  983.093
 38.7168  979.759
 38.7673  976.022
 38.8177  969.029
 38.8682  967.656
 38.9187  966.551
 38.9692  965.385
 39.0197  962.027
 39.0702  961.544
 39.1207  956.692
 39.1712  950.953
 39.2217  951.667
 39.2722  949.186
 39.3227  941.442
 39.3732  934.505
 39.4237  939.644
 39.4742  933.581
 39.5247  927.368
 39.5752  924.927
 39.6257  922.462
 39.6762  917.983
 39.7267  916.261
 39.7771  909.542
 39.8276  902.666
 39.8781  898.683
 39.9286  900.124
 39.9791  895.079
 40.0296  888.558
 40.0801  882.152
 40.1306  875.432
 40.1811  871.244
 40.2316  865.202
 40.2821  857.994
 40.3326  854.925
 40.3831  847.887
 40.4336  843.747
 40.4841  840.201
 40.5346  824.21
 40.5851  819.395
 40.6356  812.936
 40.6861  801.14
 40.7365  798.733
 40.787  776.763
 40.8375  765.765
 40.888  755.508
 40.9385  778.121
 40.989  797.675
 41.0395  841.022
 41.09  843.232
 41.1405  834.887
 41.191  812.976
 41.2415  809.373
 41.292  800.899
 41.3425  789.399
 41.393  771.388
 41.4435  761.373
 41.494  734.801
 41.5445  721.762
 41.595  677.353
 41.6455  646.608
 41.6959  572.892
 41.7464  450.155
 41.7969  316.29
 41.8474  218.162
 41.8979  97.202
 41.9484 -1.22387